{
  "resourceType": "Bundle",
  "id": "hrsn-screening-002",
  "meta": {
    "versionId": "1",
    "lastUpdated": "2025-06-09T14:15:00Z"
  },
  "type": "transaction",
  "timestamp": "2025-06-09T14:15:00Z",
  "entry": [
    {
      "fullUrl": "Patient/patient-james-chen",
      "resource": {
        "resourceType": "Patient",
        "id": "patient-james-chen",
        "meta": {
          "profile": ["http://hl7.org/fhir/us/core/StructureDefinition/us-core-patient"]
        },
        "identifier": [
          {
            "use": "usual",
            "type": {
              "coding": [
                {
                  "system": "http://terminology.hl7.org/CodeSystem/v2-0203",
                  "code": "MR",
                  "display": "Medical Record Number"
                }
              ]
            },
            "system": "http://hospital.example.org/patients",
            "value": "MRN-456789012"
          }
        ],
        "active": true,
        "name": [
          {
            "use": "official",
            "family": "Charming",
            "given": ["Prince", "Handsome"]
          }
        ],
        "telecom": [
          {
            "system": "phone",
            "value": "555-ROYAL-42",
            "use": "mobile"
          }
        ],
        "gender": "male",
        "birthDate": "1992-11-08",
        "address": [
          {
            "use": "home",
            "line": ["777 Crystal Palace Way"],
            "city": "Royal Kingdom",
            "state": "NY",
            "postalCode": "33333",
            "country": "US"
          }
        ]
      }
    },
    {
      "fullUrl": "Observation/sexual-orientation-james",
      "resource": {
        "resourceType": "Observation",
        "id": "sexual-orientation-james",
        "meta": {
          "profile": ["http://hl7.org/fhir/us/core/StructureDefinition/us-core-observation-sexual-orientation"]
        },
        "status": "final",
        "category": [
          {
            "coding": [
              {
                "system": "http://terminology.hl7.org/CodeSystem/observation-category",
                "code": "social-history",
                "display": "Social History"
              }
            ]
          }
        ],
        "code": {
          "coding": [
            {
              "system": "http://loinc.org",
              "code": "76690-7",
              "display": "Sexual orientation"
            }
          ]
        },
        "subject": {
          "reference": "Patient/patient-james-chen"
        },
        "effectiveDateTime": "2025-06-09T14:15:00Z",
        "valueCodeableConcept": {
          "coding": [
            {
              "system": "http://snomed.info/sct",
              "code": "20430005",
              "display": "Straight"
            }
          ]
        }
      }
    },
    {
      "fullUrl": "Organization/buffalo-family-clinic",
      "resource": {
        "resourceType": "Organization",
        "id": "buffalo-family-clinic",
        "meta": {
          "profile": ["http://hl7.org/fhir/us/core/StructureDefinition/us-core-organization"]
        },
        "identifier": [
          {
            "use": "official",
            "type": {
              "coding": [
                {
                  "system": "http://terminology.hl7.org/CodeSystem/v2-0203",
                  "code": "NPI",
                  "display": "National Provider Identifier"
                }
              ]
            },
            "system": "http://hl7.org/fhir/sid/us-npi",
            "value": "9876543210"
          }
        ],
        "active": true,
        "type": [
          {
            "coding": [
              {
                "system": "http://hl7.org/fhir/organization-type",
                "code": "Cg",
                "display": "Community Group"
              }
            ],
            "text": "HRSN Service Provider"
          }
        ],
        "name": "Buffalo Family Health Clinic",
        "telecom": [
          {
            "system": "phone",
            "value": "716-555-0200"
          }
        ],
        "address": [
          {
            "line": ["456 Main Street"],
            "city": "Buffalo",
            "state": "NY",
            "postalCode": "14203"
          }
        ]
      }
    },
    {
      "fullUrl": "Location/buffalo-clinic-main",
      "resource": {
        "resourceType": "Location",
        "id": "buffalo-clinic-main",
        "status": "active",
        "name": "Buffalo Family Health Clinic - Main Office",
        "address": {
          "line": ["456 Main Street"],
          "city": "Buffalo",
          "state": "NY",
          "postalCode": "14203"
        },
        "managingOrganization": {
          "reference": "Organization/buffalo-family-clinic"
        }
      }
    },
    {
      "fullUrl": "Encounter/screening-encounter-002",
      "resource": {
        "resourceType": "Encounter",
        "id": "screening-encounter-002",
        "status": "finished",
        "class": {
          "system": "http://terminology.hl7.org/CodeSystem/v3-ActCode",
          "code": "AMB",
          "display": "ambulatory"
        },
        "type": [
          {
            "coding": [
              {
                "system": "http://snomed.info/sct",
                "code": "23918007",
                "display": "History taking, self-administered, by computer terminal"
              }
            ]
          }
        ],
        "subject": {
          "reference": "Patient/patient-james-chen"
        },
        "period": {
          "start": "2025-06-09T14:15:00Z",
          "end": "2025-06-09T14:25:00Z"
        },
        "location": [
          {
            "location": {
              "reference": "Location/buffalo-clinic-main"
            }
          }
        ],
        "serviceProvider": {
          "reference": "Organization/buffalo-family-clinic"
        }
      }
    },
    {
      "fullUrl": "Consent/screening-consent-002",
      "resource": {
        "resourceType": "Consent",
        "id": "screening-consent-002",
        "status": "active",
        "scope": {
          "coding": [
            {
              "system": "http://terminology.hl7.org/CodeSystem/consentscope",
              "code": "patient-privacy",
              "display": "Privacy Consent"
            }
          ]
        },
        "category": [
          {
            "coding": [
              {
                "system": "http://loinc.org",
                "code": "64292-6",
                "display": "Release of information consent"
              }
            ]
          }
        ],
        "patient": {
          "reference": "Patient/patient-james-chen"
        },
        "dateTime": "2025-06-09T14:15:00Z",
        "provision": {
          "type": "permit"
        }
      }
    },
    {
      "fullUrl": "QuestionnaireResponse/questionnaire-response-002",
      "resource": {
        "resourceType": "QuestionnaireResponse",
        "id": "questionnaire-response-002",
        "meta": {
          "profile": ["http://shinny.org/us/ny/hrsn/StructureDefinition/SHINNYQuestionnaireResponse"]
        },
        "questionnaire": "http://shinny.org/us/ny/hrsn/Questionnaire/NYSAHCHRSN",
        "status": "completed",
        "subject": {
          "reference": "Patient/patient-james-chen",
          "display": "James Wei Chen"
        },
        "encounter": {
          "reference": "Encounter/screening-encounter-002"
        },
        "authored": "2025-06-09T14:15:00Z",
        "item": [
          {
            "linkId": "71802-3",
            "text": "What is your living situation today?",
            "answer": [
              {
                "valueCoding": {
                  "system": "http://loinc.org",
                  "code": "LA31993-1",
                  "display": "I have a steady place to live"
                }
              }
            ]
          },
          {
            "linkId": "96778-6",
            "text": "Think about the place you live. Do you have problems with any of the following?",
            "answer": [
              {
                "valueCoding": {
                  "system": "http://loinc.org",
                  "code": "LA31996-4",
                  "display": "Pests such as bugs, ants, or mice"
                }
              }
            ]
          },
          {
            "linkId": "96779-4",
            "text": "In the past 12 months has the electric, gas, oil, or water company threatened to shut off services in your home?",
            "answer": [
              {
                "valueCoding": {
                  "system": "http://loinc.org",
                  "code": "LA32-8",
                  "display": "No"
                }
              }
            ]
          },
          {
            "linkId": "88122-7",
            "text": "Within the past 12 months, you worried that your food would run out before you got money to buy more.",
            "answer": [
              {
                "valueCoding": {
                  "system": "http://loinc.org",
                  "code": "LA28398-8",
                  "display": "Never true"
                }
              }
            ]
          },
          {
            "linkId": "88123-5",
            "text": "Within the past 12 months, the food you bought just didn't last and you didn't have money to get more.",
            "answer": [
              {
                "valueCoding": {
                  "system": "http://loinc.org",
                  "code": "LA28398-8",
                  "display": "Never true"
                }
              }
            ]
          },
          {
            "linkId": "93030-5",
            "text": "In the past 12 months, has lack of reliable transportation kept you from medical appointments, meetings, work or from getting things needed for daily living?",
            "answer": [
              {
                "valueCoding": {
                  "system": "http://loinc.org",
                  "code": "LA33-6",
                  "display": "Yes"
                }
              }
            ]
          },
          {
            "linkId": "96780-2",
            "text": "Do you want help finding or keeping work or a job?",
            "answer": [
              {
                "valueCoding": {
                  "system": "http://loinc.org",
                  "code": "LA31983-2",
                  "display": "I do not need or want help"
                }
              }
            ]
          },
          {
            "linkId": "96782-8",
            "text": "Do you want help with school or training? For example, starting or completing job training or getting a high school diploma, GED or equivalent.",
            "answer": [
              {
                "valueCoding": {
                  "system": "http://loinc.org",
                  "code": "LA33-6",
                  "display": "Yes"
                }
              }
            ]
          },
          {
            "linkId": "95618-5",
            "text": "How often does anyone, including family and friends, physically hurt you?",
            "answer": [
              {
                "valueCoding": {
                  "system": "http://loinc.org",
                  "code": "LA6270-8",
                  "display": "Never"
                }
              }
            ]
          },
          {
            "linkId": "95617-7",
            "text": "How often does anyone, including family and friends, insult or talk down to you?",
            "answer": [
              {
                "valueCoding": {
                  "system": "http://loinc.org",
                  "code": "LA10066-1",
                  "display": "Rarely"
                }
              }
            ]
          },
          {
            "linkId": "95616-9",
            "text": "How often does anyone, including family and friends, threaten you with harm?",
            "answer": [
              {
                "valueCoding": {
                  "system": "http://loinc.org",
                  "code": "LA6270-8",
                  "display": "Never"
                }
              }
            ]
          },
          {
            "linkId": "95615-1",
            "text": "How often does anyone, including family and friends, scream or curse at you?",
            "answer": [
              {
                "valueCoding": {
                  "system": "http://loinc.org",
                  "code": "LA6270-8",
                  "display": "Never"
                }
              }
            ]
          },
          {
            "linkId": "95614-4",
            "text": "Total Safety Score",
            "answer": [
              {
                "valueInteger": 3
              }
            ]
          }
        ]
      }
    },
    {
      "fullUrl": "Observation/q1-living-situation-james",
      "resource": {
        "resourceType": "Observation",
        "id": "q1-living-situation-james",
        "meta": {
          "profile": ["http://shinny.org/us/ny/hrsn/StructureDefinition/SHINNY-ObservationScreeningResponse"]
        },
        "status": "final",
        "category": [
          {
            "coding": [
              {
                "system": "http://hl7.org/fhir/us/sdoh-clinicalcare/CodeSystem/SDOHCC-CodeSystemTemporaryCodes",
                "code": "housing-instability",
                "display": "Housing Instability"
              }
            ]
          }
        ],
        "code": {
          "coding": [
            {
              "system": "http://loinc.org",
              "code": "71802-3",
              "display": "What is your living situation today"
            }
          ]
        },
        "subject": {
          "reference": "Patient/patient-james-chen"
        },
        "encounter": {
          "reference": "Encounter/screening-encounter-002"
        },
        "effectiveDateTime": "2025-06-09T14:15:00Z",
        "valueCodeableConcept": {
          "coding": [
            {
              "system": "http://loinc.org",
              "code": "LA31993-1",
              "display": "I have a steady place to live"
            }
          ]
        }
      }
    },
    {
      "fullUrl": "Observation/q2-housing-problems-james",
      "resource": {
        "resourceType": "Observation",
        "id": "q2-housing-problems-james",
        "meta": {
          "profile": ["http://shinny.org/us/ny/hrsn/StructureDefinition/SHINNY-ObservationScreeningResponse"]
        },
        "status": "final",
        "category": [
          {
            "coding": [
              {
                "system": "http://hl7.org/fhir/us/sdoh-clinicalcare/CodeSystem/SDOHCC-CodeSystemTemporaryCodes",
                "code": "inadequate-housing",
                "display": "Inadequate Housing"
              }
            ]
          }
        ],
        "code": {
          "coding": [
            {
              "system": "http://loinc.org",
              "code": "96778-6",
              "display": "Think about the place you live. Do you have problems with any of the following"
            }
          ]
        },
        "subject": {
          "reference": "Patient/patient-james-chen"
        },
        "encounter": {
          "reference": "Encounter/screening-encounter-002"
        },
        "effectiveDateTime": "2025-06-09T14:15:00Z",
        "valueCodeableConcept": {
          "coding": [
            {
              "system": "http://loinc.org",
              "code": "LA9-3",
              "display": "None of the above"
            }
          ]
        }
      }
    },
    {
      "fullUrl": "Observation/q3-utility-shutoff-james",
      "resource": {
        "resourceType": "Observation",
        "id": "q3-utility-shutoff-james",
        "meta": {
          "profile": ["http://shinny.org/us/ny/hrsn/StructureDefinition/SHINNY-ObservationScreeningResponse"]
        },
        "status": "final",
        "category": [
          {
            "coding": [
              {
                "system": "http://hl7.org/fhir/us/sdoh-clinicalcare/CodeSystem/SDOHCC-CodeSystemTemporaryCodes",
                "code": "utility-insecurity",
                "display": "Utility Insecurity"
              }
            ]
          }
        ],
        "code": {
          "coding": [
            {
              "system": "http://loinc.org",
              "code": "96779-4",
              "display": "In the past 12 months has the electric, gas, oil, or water company threatened to shut off services in your home"
            }
          ]
        },
        "subject": {
          "reference": "Patient/patient-james-chen"
        },
        "encounter": {
          "reference": "Encounter/screening-encounter-002"
        },
        "effectiveDateTime": "2025-06-09T14:15:00Z",
        "valueCodeableConcept": {
          "coding": [
            {
              "system": "http://loinc.org",
              "code": "LA32-8",
              "display": "No"
            }
          ]
        }
      }
    },
    {
      "fullUrl": "Observation/q4-food-worry-james",
      "resource": {
        "resourceType": "Observation",
        "id": "q4-food-worry-james",
        "meta": {
          "profile": ["http://shinny.org/us/ny/hrsn/StructureDefinition/SHINNY-ObservationScreeningResponse"]
        },
        "status": "final",
        "category": [
          {
            "coding": [
              {
                "system": "http://hl7.org/fhir/us/sdoh-clinicalcare/CodeSystem/SDOHCC-CodeSystemTemporaryCodes",
                "code": "food-insecurity",
                "display": "Food Insecurity"
              }
            ]
          }
        ],
        "code": {
          "coding": [
            {
              "system": "http://loinc.org",
              "code": "88122-7",
              "display": "Within the past 12 months, you worried that your food would run out before you got money to buy more"
            }
          ]
        },
        "subject": {
          "reference": "Patient/patient-james-chen"
        },
        "encounter": {
          "reference": "Encounter/screening-encounter-002"
        },
        "effectiveDateTime": "2025-06-09T14:15:00Z",
        "valueCodeableConcept": {
          "coding": [
            {
              "system": "http://loinc.org",
              "code": "LA28398-8",
              "display": "Never true"
            }
          ]
        }
      }
    },
    {
      "fullUrl": "Observation/q5-food-didnt-last-james",
      "resource": {
        "resourceType": "Observation",
        "id": "q5-food-didnt-last-james",
        "meta": {
          "profile": ["http://shinny.org/us/ny/hrsn/StructureDefinition/SHINNY-ObservationScreeningResponse"]
        },
        "status": "final",
        "category": [
          {
            "coding": [
              {
                "system": "http://hl7.org/fhir/us/sdoh-clinicalcare/CodeSystem/SDOHCC-CodeSystemTemporaryCodes",
                "code": "food-insecurity",
                "display": "Food Insecurity"
              }
            ]
          }
        ],
        "code": {
          "coding": [
            {
              "system": "http://loinc.org",
              "code": "88123-5",
              "display": "Within the past 12 months, the food you bought just didn't last and you didn't have money to get more"
            }
          ]
        },
        "subject": {
          "reference": "Patient/patient-james-chen"
        },
        "encounter": {
          "reference": "Encounter/screening-encounter-002"
        },
        "effectiveDateTime": "2025-06-09T14:15:00Z",
        "valueCodeableConcept": {
          "coding": [
            {
              "system": "http://loinc.org",
              "code": "LA28398-8",
              "display": "Never true"
            }
          ]
        }
      }
    },
    {
      "fullUrl": "Observation/q6-transportation-james",
      "resource": {
        "resourceType": "Observation",
        "id": "q6-transportation-james",
        "meta": {
          "profile": ["http://shinny.org/us/ny/hrsn/StructureDefinition/SHINNY-ObservationScreeningResponse"]
        },
        "status": "final",
        "category": [
          {
            "coding": [
              {
                "system": "http://hl7.org/fhir/us/sdoh-clinicalcare/CodeSystem/SDOHCC-CodeSystemTemporaryCodes",
                "code": "transportation-insecurity",
                "display": "Transportation Insecurity"
              }
            ]
          }
        ],
        "code": {
          "coding": [
            {
              "system": "http://loinc.org",
              "code": "93030-5",
              "display": "In the past 12 months, has lack of reliable transportation kept you from medical appointments, meetings, work or from getting things needed for daily living"
            }
          ]
        },
        "subject": {
          "reference": "Patient/patient-james-chen"
        },
        "encounter": {
          "reference": "Encounter/screening-encounter-002"
        },
        "effectiveDateTime": "2025-06-09T14:15:00Z",
        "valueCodeableConcept": {
          "coding": [
            {
              "system": "http://loinc.org",
              "code": "LA33-6",
              "display": "Yes"
            }
          ]
        },
        "interpretation": [
          {
            "coding": [
              {
                "system": "http://terminology.hl7.org/CodeSystem/v3-ObservationInterpretation",
                "code": "POS",
                "display": "Positive"
              }
            ]
          }
        ]
      }
    },
    {
      "fullUrl": "Observation/q7-employment-james",
      "resource": {
        "resourceType": "Observation",
        "id": "q7-employment-james",
        "meta": {
          "profile": ["http://shinny.org/us/ny/hrsn/StructureDefinition/SHINNY-ObservationScreeningResponse"]
        },
        "status": "final",
        "category": [
          {
            "coding": [
              {
                "system": "http://hl7.org/fhir/us/sdoh-clinicalcare/CodeSystem/SDOHCC-CodeSystemTemporaryCodes",
                "code": "employment-status",
                "display": "Employment Status"
              }
            ]
          }
        ],
        "code": {
          "coding": [
            {
              "system": "http://loinc.org",
              "code": "96780-2",
              "display": "Do you want help finding or keeping work or a job"
            }
          ]
        },
        "subject": {
          "reference": "Patient/patient-james-chen"
        },
        "encounter": {
          "reference": "Encounter/screening-encounter-002"
        },
        "effectiveDateTime": "2025-06-09T14:15:00Z",
        "valueCodeableConcept": {
          "coding": [
            {
              "system": "http://loinc.org",
              "code": "LA31983-2",
              "display": "I do not need or want help"
            }
          ]
        }
      }
    },
    {
      "fullUrl": "Observation/q8-education-james",
      "resource": {
        "resourceType": "Observation",
        "id": "q8-education-james",
        "meta": {
          "profile": ["http://shinny.org/us/ny/hrsn/StructureDefinition/SHINNY-ObservationScreeningResponse"]
        },
        "status": "final",
        "category": [
          {
            "coding": [
              {
                "system": "http://hl7.org/fhir/us/sdoh-clinicalcare/CodeSystem/SDOHCC-CodeSystemTemporaryCodes",
                "code": "sdoh-category-unspecified",
                "display": "SDOH Category Unspecified"
              }
            ]
          }
        ],
        "code": {
          "coding": [
            {
              "system": "http://loinc.org",
              "code": "96782-8",
              "display": "Do you want help with school or training. For example, starting or completing job training or getting a high school diploma, GED or equivalent"
            }
          ]
        },
        "subject": {
          "reference": "Patient/patient-james-chen"
        },
        "encounter": {
          "reference": "Encounter/screening-encounter-002"
        },
        "effectiveDateTime": "2025-06-09T14:15:00Z",
        "valueCodeableConcept": {
          "coding": [
            {
              "system": "http://loinc.org",
              "code": "LA32-8",
              "display": "No"
            }
          ]
        }
      }
    },
    {
      "fullUrl": "Observation/q9-physical-hurt-james",
      "resource": {
        "resourceType": "Observation",
        "id": "q9-physical-hurt-james",
        "meta": {
          "profile": ["http://shinny.org/us/ny/hrsn/StructureDefinition/SHINNY-ObservationScreeningResponse"]
        },
        "status": "final",
        "category": [
          {
            "coding": [
              {
                "system": "http://hl7.org/fhir/us/sdoh-clinicalcare/CodeSystem/SDOHCC-CodeSystemTemporaryCodes",
                "code": "sdoh-category-unspecified",
                "display": "SDOH Category Unspecified"
              }
            ]
          }
        ],
        "code": {
          "coding": [
            {
              "system": "http://loinc.org",
              "code": "95618-5",
              "display": "How often does anyone, including family and friends, physically hurt you"
            }
          ]
        },
        "subject": {
          "reference": "Patient/patient-james-chen"
        },
        "encounter": {
          "reference": "Encounter/screening-encounter-002"
        },
        "effectiveDateTime": "2025-06-09T14:15:00Z",
        "valueCodeableConcept": {
          "coding": [
            {
              "system": "http://loinc.org",
              "code": "LA6270-8",
              "display": "Never (1)"
            }
          ]
        }
      }
    },
    {
      "fullUrl": "Observation/q10-insult-james",
      "resource": {
        "resourceType": "Observation",
        "id": "q10-insult-james",
        "meta": {
          "profile": ["http://shinny.org/us/ny/hrsn/StructureDefinition/SHINNY-ObservationScreeningResponse"]
        },
        "status": "final",
        "category": [
          {
            "coding": [
              {
                "system": "http://hl7.org/fhir/us/sdoh-clinicalcare/CodeSystem/SDOHCC-CodeSystemTemporaryCodes",
                "code": "sdoh-category-unspecified",
                "display": "SDOH Category Unspecified"
              }
            ]
          }
        ],
        "code": {
          "coding": [
            {
              "system": "http://loinc.org",
              "code": "95617-7",
              "display": "How often does anyone, including family and friends, insult or talk down to you"
            }
          ]
        },
        "subject": {
          "reference": "Patient/patient-james-chen"
        },
        "encounter": {
          "reference": "Encounter/screening-encounter-002"
        },
        "effectiveDateTime": "2025-06-09T14:15:00Z",
        "valueCodeableConcept": {
          "coding": [
            {
              "system": "http://loinc.org",
              "code": "LA6270-8",
              "display": "Never (1)"
            }
          ]
        }
      }
    },
    {
      "fullUrl": "Observation/q11-threaten-james",
      "resource": {
        "resourceType": "Observation",
        "id": "q11-threaten-james",
        "meta": {
          "profile": ["http://shinny.org/us/ny/hrsn/StructureDefinition/SHINNY-ObservationScreeningResponse"]
        },
        "status": "final",
        "category": [
          {
            "coding": [
              {
                "system": "http://hl7.org/fhir/us/sdoh-clinicalcare/CodeSystem/SDOHCC-CodeSystemTemporaryCodes",
                "code": "sdoh-category-unspecified",
                "display": "SDOH Category Unspecified"
              }
            ]
          }
        ],
        "code": {
          "coding": [
            {
              "system": "http://loinc.org",
              "code": "95616-9",
              "display": "How often does anyone, including family and friends, threaten you with harm"
            }
          ]
        },
        "subject": {
          "reference": "Patient/patient-james-chen"
        },
        "encounter": {
          "reference": "Encounter/screening-encounter-002"
        },
        "effectiveDateTime": "2025-06-09T14:15:00Z",
        "valueCodeableConcept": {
          "coding": [
            {
              "system": "http://loinc.org",
              "code": "LA6270-8",
              "display": "Never (1)"
            }
          ]
        }
      }
    },
    {
      "fullUrl": "Observation/q12-scream-curse-james",
      "resource": {
        "resourceType": "Observation",
        "id": "q12-scream-curse-james",
        "meta": {
          "profile": ["http://shinny.org/us/ny/hrsn/StructureDefinition/SHINNY-ObservationScreeningResponse"]
        },
        "status": "final",
        "category": [
          {
            "coding": [
              {
                "system": "http://hl7.org/fhir/us/sdoh-clinicalcare/CodeSystem/SDOHCC-CodeSystemTemporaryCodes",
                "code": "sdoh-category-unspecified",
                "display": "SDOH Category Unspecified"
              }
            ]
          }
        ],
        "code": {
          "coding": [
            {
              "system": "http://loinc.org",
              "code": "95615-1",
              "display": "How often does anyone, including family and friends, scream or curse at you"
            }
          ]
        },
        "subject": {
          "reference": "Patient/patient-james-chen"
        },
        "encounter": {
          "reference": "Encounter/screening-encounter-002"
        },
        "effectiveDateTime": "2025-06-09T14:15:00Z",
        "valueCodeableConcept": {
          "coding": [
            {
              "system": "http://loinc.org",
              "code": "LA10066-1",
              "display": "Rarely (2)"
            }
          ]
        }
      }
    },
    {
      "fullUrl": "Observation/safety-score-james",
      "resource": {
        "resourceType": "Observation",
        "id": "safety-score-james",
        "meta": {
          "profile": ["http://shinny.org/us/ny/hrsn/StructureDefinition/SHINNY-ObservationScreeningResponse"]
        },
        "status": "final",
        "category": [
          {
            "coding": [
              {
                "system": "http://hl7.org/fhir/us/sdoh-clinicalcare/CodeSystem/SDOHCC-CodeSystemTemporaryCodes",
                "code": "sdoh-category-unspecified",
                "display": "SDOH Category Unspecified"
              }
            ]
          }
        ],
        "code": {
          "coding": [
            {
              "system": "http://loinc.org",
              "code": "95614-4",
              "display": "Total Safety Score"
            }
          ]
        },
        "subject": {
          "reference": "Patient/patient-james-chen"
        },
        "encounter": {
          "reference": "Encounter/screening-encounter-002"
        },
        "effectiveDateTime": "2025-06-09T14:15:00Z",
        "valueInteger": 5,
        "note": [
          {
            "text": "Score of 5 (1+1+1+2) indicates low safety concerns. Score below 11 indicates person is likely safe."
          }
        ]
      }
    }
  ]
}