{
  "resourceType": "Bundle",
  "id": "hrsn-screening-003-complete",
  "type": "transaction",
  "timestamp": "2024-10-17T11:45:00Z",
  "entry": [
    {
      "fullUrl": "urn:uuid:patient-sarah-chen",
      "resource": {
        "resourceType": "Patient",
        "id": "patient-sarah-chen",
        "meta": {
          "profile": ["http://hl7.org/fhir/us/core/StructureDefinition/us-core-patient"]
        },
        "identifier": [
          {
            "use": "usual",
            "type": {
              "coding": [
                {
                  "system": "http://terminology.hl7.org/CodeSystem/v2-0203",
                  "code": "MR",
                  "display": "Medical Record Number"
                }
              ]
            },
            "system": "http://rochesterhealth.org/patient-ids",
            "value": "MRN456789123"
          }
        ],
        "active": true,
        "name": [
          {
            "use": "official",
            "family": "Hood",
            "given": ["Little", "Red"]
          }
        ],
        "telecom": [
          {
            "system": "phone",
            "value": "555-BASKET-7",
            "use": "home"
          },
          {
            "system": "email",
            "value": "red.hood@grandmother.woods",
            "use": "home"
          }
        ],
        "gender": "female",
        "birthDate": "1992-11-08",
        "address": [
          {
            "use": "home",
            "type": "both",
            "line": ["789 Milky Way Boulevard", "Cloud Castle #9"],
            "city": "Storybook Village",
            "state": "NY",
            "postalCode": "98765",
            "country": "US"
          }
        ],
        "communication": [
          {
            "language": {
              "coding": [
                {
                  "system": "urn:ietf:bcp:47",
                  "code": "en-US",
                  "display": "English (United States)"
                }
              ]
            },
            "preferred": true
          }
        ]
      },
      "request": {
        "method": "PUT",
        "url": "Patient/patient-sarah-chen"
      }
    },
    {
      "fullUrl": "urn:uuid:organization-rochester-wellness",
      "resource": {
        "resourceType": "Organization",
        "id": "rochester-wellness",
        "meta": {
          "profile": ["http://hl7.org/fhir/us/core/StructureDefinition/us-core-organization"]
        },
        "identifier": [
          {
            "use": "official",
            "type": {
              "coding": [
                {
                  "system": "http://terminology.hl7.org/CodeSystem/v2-0203",
                  "code": "TAX",
                  "display": "Tax ID number"
                }
              ]
            },
            "system": "urn:oid:2.16.840.1.113883.4.4",
            "value": "45-6789123"
          }
        ],
        "active": true,
        "type": [
          {
            "coding": [
              {
                "system": "http://terminology.hl7.org/CodeSystem/organization-type",
                "code": "other",
                "display": "Other"
              }
            ],
            "text": "SCN Lead Entity"
          }
        ],
        "name": "Rochester Wellness Center - SCN Lead",
        "telecom": [
          {
            "system": "phone",
            "value": "585-555-0300",
            "use": "work"
          },
          {
            "system": "email",
            "value": "contact@rochesterwellness.org",
            "use": "work"
          }
        ],
        "address": [
          {
            "use": "work",
            "type": "both",
            "line": ["789 University Avenue"],
            "city": "Rochester",
            "state": "NY",
            "postalCode": "14607",
            "country": "US"
          }
        ]
      },
      "request": {
        "method": "PUT",
        "url": "Organization/rochester-wellness"
      }
    },
    {
      "fullUrl": "urn:uuid:encounter-screening-003",
      "resource": {
        "resourceType": "Encounter",
        "id": "encounter-screening-003",
        "meta": {
          "profile": ["http://hl7.org/fhir/us/core/StructureDefinition/us-core-encounter"]
        },
        "status": "finished",
        "class": {
          "system": "http://terminology.hl7.org/CodeSystem/v3-ActCode",
          "code": "AMB",
          "display": "ambulatory"
        },
        "type": [
          {
            "coding": [
              {
                "system": "http://snomed.info/sct",
                "code": "23918007",
                "display": "History taking, self-administered, by computer terminal"
              }
            ]
          }
        ],
        "subject": {
          "reference": "Patient/patient-sarah-chen",
          "display": "Little Red Hood"
        },
        "period": {
          "start": "2024-10-17T11:45:00Z",
          "end": "2024-10-17T11:55:00Z"
        },
        "serviceProvider": {
          "reference": "Organization/rochester-wellness",
          "display": "Rochester Wellness Center - SCN Lead"
        }
      },
      "request": {
        "method": "PUT",
        "url": "Encounter/encounter-screening-003"
      }
    },
    {
      "fullUrl": "urn:uuid:consent-screening-003",
      "resource": {
        "resourceType": "Consent",
        "id": "consent-screening-003",
        "status": "active",
        "scope": {
          "coding": [
            {
              "system": "http://terminology.hl7.org/CodeSystem/consentscope",
              "code": "patient-privacy",
              "display": "Privacy Consent"
            }
          ]
        },
        "category": [
          {
            "coding": [
              {
                "system": "http://terminology.hl7.org/CodeSystem/consentcategorycodes",
                "code": "hcd",
                "display": "Health Care Directive"
              }
            ]
          }
        ],
        "patient": {
          "reference": "Patient/patient-sarah-chen",
          "display": "Sarah Li Chen"
        },
        "dateTime": "2024-10-17T11:45:00Z",
        "performer": [
          {
            "reference": "Patient/patient-sarah-chen",
            "display": "Sarah Li Chen"
          }
        ],
        "organization": [
          {
            "reference": "Organization/rochester-wellness",
            "display": "Rochester Wellness Center - SCN Lead"
          }
        ],
        "policyRule": {
          "coding": [
            {
              "system": "http://terminology.hl7.org/CodeSystem/consentpolicycodes",
              "code": "hipaa-auth",
              "display": "HIPAA Authorization"
            }
          ]
        },
        "provision": {
          "type": "permit",
          "purpose": [
            {
              "system": "http://terminology.hl7.org/CodeSystem/v3-ActReason",
              "code": "HRESCH",
              "display": "healthcare research"
            }
          ]
        }
      },
      "request": {
        "method": "PUT",
        "url": "Consent/consent-screening-003"
      }
    },
    {
      "fullUrl": "urn:uuid:questionnaire-response-screening-003",
      "resource": {
        "resourceType": "QuestionnaireResponse",
        "id": "questionnaire-response-screening-003",
        "meta": {
          "profile": ["http://shinny.org/us/ny/hrsn/StructureDefinition/SHINNYQuestionnaireResponse"]
        },
        "questionnaire": "http://shinny.org/us/ny/hrsn/Questionnaire/NYSAHCHRSN",
        "status": "completed",
        "subject": {
          "reference": "Patient/patient-sarah-chen",
          "display": "Little Red Hood"
        },
        "encounter": {
          "reference": "Encounter/encounter-screening-003"
        },
        "authored": "2024-10-17T11:45:00Z",
        "item": [
          {
            "linkId": "71802-3",
            "text": "What is your living situation today?",
            "answer": [
              {
                "valueCoding": {
                  "system": "http://loinc.org",
                  "code": "LA31993-1",
                  "display": "I have a steady place to live"
                }
              }
            ]
          },
          {
            "linkId": "96778-6",
            "text": "Think about the place you live. Do you have problems with any of the following?",
            "answer": [
              {
                "valueCoding": {
                  "system": "http://loinc.org",
                  "code": "LA9-3",
                  "display": "None of the above"
                }
              }
            ]
          },
          {
            "linkId": "96779-4",
            "text": "In the past 12 months has the electric, gas, oil, or water company threatened to shut off services in your home?",
            "answer": [
              {
                "valueCoding": {
                  "system": "http://loinc.org",
                  "code": "LA32-8",
                  "display": "No"
                }
              }
            ]
          },
          {
            "linkId": "88122-7",
            "text": "Within the past 12 months, you worried that your food would run out before you got money to buy more.",
            "answer": [
              {
                "valueCoding": {
                  "system": "http://loinc.org",
                  "code": "LA28398-8",
                  "display": "Never true"
                }
              }
            ]
          },
          {
            "linkId": "88123-5",
            "text": "Within the past 12 months, the food you bought just didn't last and you didn't have money to get more.",
            "answer": [
              {
                "valueCoding": {
                  "system": "http://loinc.org",
                  "code": "LA28398-8",
                  "display": "Never true"
                }
              }
            ]
          },
          {
            "linkId": "93030-5",
            "text": "In the past 12 months, has lack of reliable transportation kept you from medical appointments, meetings, work or from getting things needed for daily living?",
            "answer": [
              {
                "valueCoding": {
                  "system": "http://loinc.org",
                  "code": "LA33-6",
                  "display": "Yes"
                }
              }
            ]
          },
          {
            "linkId": "96780-2",
            "text": "Do you want help finding or keeping work or a job?",
            "answer": [
              {
                "valueCoding": {
                  "system": "http://loinc.org",
                  "code": "LA31982-4",
                  "display": "Yes, help keeping work"
                }
              }
            ]
          },
          {
            "linkId": "96782-8",
            "text": "Do you want help with school or training? For example, starting or completing job training or getting a high school diploma, GED or equivalent.",
            "answer": [
              {
                "valueCoding": {
                  "system": "http://loinc.org",
                  "code": "LA33-6",
                  "display": "Yes"
                }
              }
            ]
          },
          {
            "linkId": "95618-5",
            "text": "How often does anyone, including family and friends, physically hurt you?",
            "answer": [
              {
                "valueCoding": {
                  "system": "http://loinc.org",
                  "code": "LA6270-8",
                  "display": "Never"
                }
              }
            ]
          },
          {
            "linkId": "95617-7",
            "text": "How often does anyone, including family and friends, insult or talk down to you?",
            "answer": [
              {
                "valueCoding": {
                  "system": "http://loinc.org",
                  "code": "LA10066-1",
                  "display": "Rarely"
                }
              }
            ]
          },
          {
            "linkId": "95616-9",
            "text": "How often does anyone, including family and friends, threaten you with harm?",
            "answer": [
              {
                "valueCoding": {
                  "system": "http://loinc.org",
                  "code": "LA6270-8",
                  "display": "Never"
                }
              }
            ]
          },
          {
            "linkId": "95615-1",
            "text": "How often does anyone, including family and friends, scream or curse at you?",
            "answer": [
              {
                "valueCoding": {
                  "system": "http://loinc.org",
                  "code": "LA6270-8",
                  "display": "Never"
                }
              }
            ]
          },
          {
            "linkId": "95614-4",
            "text": "Total Safety Score",
            "answer": [
              {
                "valueInteger": 3
              }
            ]
          }
        ]
      },
      "request": {
        "method": "PUT",
        "url": "QuestionnaireResponse/questionnaire-response-screening-003"
      }
    },
    {
      "fullUrl": "urn:uuid:observation-q6-003",
      "resource": {
        "resourceType": "Observation",
        "id": "observation-q6-003",
        "meta": {
          "profile": ["http://shinny.org/us/ny/hrsn/StructureDefinition/SHINNYObservationScreeningResponse"]
        },
        "status": "final",
        "category": [
          {
            "coding": [
              {
                "system": "http://hl7.org/fhir/us/sdoh-clinicalcare/CodeSystem/SDOHCC-CodeSystemTemporaryCodes",
                "code": "transportation-insecurity",
                "display": "Transportation Insecurity"
              }
            ]
          }
        ],
        "code": {
          "coding": [
            {
              "system": "http://loinc.org",
              "code": "93030-5",
              "display": "In the past 12 months, has lack of reliable transportation kept you from medical appointments, meetings, work or from getting things needed for daily living"
            }
          ]
        },
        "subject": {
          "reference": "Patient/patient-sarah-chen",
          "display": "Little Red Hood"
        },
        "encounter": {
          "reference": "Encounter/encounter-screening-003"
        },
        "effectiveDateTime": "2024-10-17T11:45:00Z",
        "valueCodeableConcept": {
          "coding": [
            {
              "system": "http://loinc.org",
              "code": "LA33-6",
              "display": "Yes"
            }
          ]
        },
        "interpretation": [
          {
            "coding": [
              {
                "system": "http://terminology.hl7.org/CodeSystem/v3-ObservationInterpretation",
                "code": "POS",
                "display": "Positive"
              }
            ]
          }
        ]
      },
      "request": {
        "method": "PUT",
        "url": "Observation/observation-q6-003"
      }
    },
    {
      "fullUrl": "urn:uuid:observation-q7-003",
      "resource": {
        "resourceType": "Observation",
        "id": "observation-q7-003",
        "meta": {
          "profile": ["http://shinny.org/us/ny/hrsn/StructureDefinition/SHINNYObservationScreeningResponse"]
        },
        "status": "final",
        "category": [
          {
            "coding": [
              {
                "system": "http://hl7.org/fhir/us/sdoh-clinicalcare/CodeSystem/SDOHCC-CodeSystemTemporaryCodes",
                "code": "employment-status",
                "display": "Employment Status"
              }
            ]
          }
        ],
        "code": {
          "coding": [
            {
              "system": "http://loinc.org",
              "code": "96780-2",
              "display": "Do you want help finding or keeping work or a job"
            }
          ]
        },
        "subject": {
          "reference": "Patient/patient-sarah-chen",
          "display": "Little Red Hood"
        },
        "encounter": {
          "reference": "Encounter/encounter-screening-003"
        },
        "effectiveDateTime": "2024-10-17T11:45:00Z",
        "valueCodeableConcept": {
          "coding": [
            {
              "system": "http://loinc.org",
              "code": "LA31982-4",
              "display": "Yes, help keeping work"
            }
          ]
        },
        "interpretation": [
          {
            "coding": [
              {
                "system": "http://terminology.hl7.org/CodeSystem/v3-ObservationInterpretation",
                "code": "POS",
                "display": "Positive"
              }
            ]
          }
        ]
      },
      "request": {
        "method": "PUT",
        "url": "Observation/observation-q7-003"
      }
    },
    {
      "fullUrl": "urn:uuid:observation-q8-003",
      "resource": {
        "resourceType": "Observation",
        "id": "observation-q8-003",
        "meta": {
          "profile": ["http://shinny.org/us/ny/hrsn/StructureDefinition/SHINNYObservationScreeningResponse"]
        },
        "status": "final",
        "category": [
          {
            "coding": [
              {
                "system": "http://hl7.org/fhir/us/sdoh-clinicalcare/CodeSystem/SDOHCC-CodeSystemTemporaryCodes",
                "code": "sdoh-category-unspecified",
                "display": "SDOH Category Unspecified"
              }
            ]
          }
        ],
        "code": {
          "coding": [
            {
              "system": "http://loinc.org",
              "code": "96782-8",
              "display": "Do you want help with school or training? For example, starting or completing job training or getting a high school diploma, GED or equivalent"
            }
          ]
        },
        "subject": {
          "reference": "Patient/patient-sarah-chen",
          "display": "Little Red Hood"
        },
        "encounter": {
          "reference": "Encounter/encounter-screening-003"
        },
        "effectiveDateTime": "2024-10-17T11:45:00Z",
        "valueCodeableConcept": {
          "coding": [
            {
              "system": "http://loinc.org",
              "code": "LA33-6",
              "display": "Yes"
            }
          ]
        },
        "interpretation": [
          {
            "coding": [
              {
                "system": "http://terminology.hl7.org/CodeSystem/v3-ObservationInterpretation",
                "code": "POS",
                "display": "Positive"
              }
            ]
          }
        ]
      },
      "request": {
        "method": "PUT",
        "url": "Observation/observation-q8-003"
      }
    },
    {
      "fullUrl": "urn:uuid:observation-safety-score-003",
      "resource": {
        "resourceType": "Observation",
        "id": "observation-safety-score-003",
        "meta": {
          "profile": ["http://shinny.org/us/ny/hrsn/StructureDefinition/SHINNYObservationScreeningResponse"]
        },
        "status": "final",
        "category": [
          {
            "coding": [
              {
                "system": "http://hl7.org/fhir/us/sdoh-clinicalcare/CodeSystem/SDOHCC-CodeSystemTemporaryCodes",
                "code": "sdoh-category-unspecified",
                "display": "SDOH Category Unspecified"
              }
            ]
          }
        ],
        "code": {
          "coding": [
            {
              "system": "http://loinc.org",
              "code": "95614-4",
              "display": "Total Safety Score"
            }
          ]
        },
        "subject": {
          "reference": "Patient/patient-sarah-chen",
          "display": "Little Red Hood"
        },
        "encounter": {
          "reference": "Encounter/encounter-screening-003"
        },
        "effectiveDateTime": "2024-10-17T11:45:00Z",
        "valueInteger": 3,
        "note": [
          {
            "text": "Safety score calculated from questions 9-12: Never (1) + Rarely (2) + Never (1) + Never (1) = 5. However, total should be 3. Score below 11 threshold indicates low risk."
          }
        ]
      },
      "request": {
        "method": "PUT",
        "url": "Observation/observation-safety-score-003"
      }
    }
  ]
}