{
  "resourceType": "Bundle",
  "id": "hrsn-screening-001",
  "meta": {
    "versionId": "1",
    "lastUpdated": "2025-06-09T15:30:00Z"
  },
  "type": "transaction",
  "timestamp": "2025-06-09T15:30:00Z",
  "entry": [
    {
      "fullUrl": "Patient/patient-maria-rodriguez",
      "resource": {
        "resourceType": "Patient",
        "id": "patient-maria-rodriguez",
        "meta": {
          "profile": ["http://hl7.org/fhir/us/core/StructureDefinition/us-core-patient"]
        },
        "identifier": [
          {
            "use": "usual",
            "type": {
              "coding": [
                {
                  "system": "http://terminology.hl7.org/CodeSystem/v2-0203",
                  "code": "MR",
                  "display": "Medical Record Number"
                }
              ]
            },
            "system": "http://hospital.example.org/patients",
            "value": "MRN-789456123"
          }
        ],
        "active": true,
        "name": [
          {
            "use": "official",
            "family": "Rodriguez",
            "given": ["Maria", "Elena"]
          }
        ],
        "telecom": [
          {
            "system": "phone",
            "value": "518-555-0147",
            "use": "mobile"
          }
        ],
        "gender": "female",
        "birthDate": "1985-03-15",
        "address": [
          {
            "use": "home",
            "line": ["45 Clinton Ave", "Apt 2B"],
            "city": "Albany",
            "state": "NY",
            "postalCode": "12206",
            "country": "US"
          }
        ]
      }
    },
    {
      "fullUrl": "Observation/sexual-orientation-maria",
      "resource": {
        "resourceType": "Observation",
        "id": "sexual-orientation-maria",
        "meta": {
          "profile": ["http://hl7.org/fhir/us/core/StructureDefinition/us-core-observation-sexual-orientation"]
        },
        "status": "final",
        "category": [
          {
            "coding": [
              {
                "system": "http://terminology.hl7.org/CodeSystem/observation-category",
                "code": "social-history",
                "display": "Social History"
              }
            ]
          }
        ],
        "code": {
          "coding": [
            {
              "system": "http://loinc.org",
              "code": "76690-7",
              "display": "Sexual orientation"
            }
          ]
        },
        "subject": {
          "reference": "Patient/patient-maria-rodriguez"
        },
        "effectiveDateTime": "2025-06-09T15:30:00Z",
        "valueCodeableConcept": {
          "coding": [
            {
              "system": "http://snomed.info/sct",
              "code": "20430005",
              "display": "Straight"
            }
          ]
        }
      }
    },
    {
      "fullUrl": "Organization/albany-community-health",
      "resource": {
        "resourceType": "Organization",
        "id": "albany-community-health",
        "meta": {
          "profile": ["http://hl7.org/fhir/us/core/StructureDefinition/us-core-organization"]
        },
        "identifier": [
          {
            "use": "official",
            "type": {
              "coding": [
                {
                  "system": "http://terminology.hl7.org/CodeSystem/v2-0203",
                  "code": "NPI",
                  "display": "National Provider Identifier"
                }
              ]
            },
            "system": "http://hl7.org/fhir/sid/us-npi",
            "value": "1234567890"
          }
        ],
        "active": true,
        "type": [
          {
            "coding": [
              {
                "system": "http://hl7.org/fhir/organization-type",
                "code": "Other",
                "display": "Other"
              }
            ],
            "text": "SCN Lead Entity"
          }
        ],
        "name": "Albany Community Health Center - SCN Lead",
        "telecom": [
          {
            "system": "phone",
            "value": "518-555-0100"
          }
        ],
        "address": [
          {
            "line": ["123 Health Way"],
            "city": "Albany",
            "state": "NY",
            "postalCode": "12208"
          }
        ]
      }
    },
    {
      "fullUrl": "Location/albany-health-main",
      "resource": {
        "resourceType": "Location",
        "id": "albany-health-main",
        "status": "active",
        "name": "Albany Community Health - Main Campus",
        "address": {
          "line": ["123 Health Way"],
          "city": "Albany",
          "state": "NY",
          "postalCode": "12208"
        },
        "managingOrganization": {
          "reference": "Organization/albany-community-health"
        }
      }
    },
    {
      "fullUrl": "Encounter/screening-encounter-001",
      "resource": {
        "resourceType": "Encounter",
        "id": "screening-encounter-001",
        "status": "finished",
        "class": {
          "system": "http://terminology.hl7.org/CodeSystem/v3-ActCode",
          "code": "AMB",
          "display": "ambulatory"
        },
        "type": [
          {
            "coding": [
              {
                "system": "http://snomed.info/sct",
                "code": "405672008",
                "display": "Direct questioning"
              }
            ]
          }
        ],
        "subject": {
          "reference": "Patient/patient-maria-rodriguez"
        },
        "period": {
          "start": "2025-06-09T15:30:00Z",
          "end": "2025-06-09T15:45:00Z"
        },
        "location": [
          {
            "location": {
              "reference": "Location/albany-health-main"
            }
          }
        ],
        "serviceProvider": {
          "reference": "Organization/albany-community-health"
        }
      }
    },
    {
      "fullUrl": "Consent/screening-consent-001",
      "resource": {
        "resourceType": "Consent",
        "id": "screening-consent-001",
        "status": "active",
        "scope": {
          "coding": [
            {
              "system": "http://terminology.hl7.org/CodeSystem/consentscope",
              "code": "patient-privacy",
              "display": "Privacy Consent"
            }
          ]
        },
        "category": [
          {
            "coding": [
              {
                "system": "http://loinc.org",
                "code": "64292-6",
                "display": "Release of information consent"
              }
            ]
          }
        ],
        "patient": {
          "reference": "Patient/patient-maria-rodriguez"
        },
        "dateTime": "2025-06-09T15:30:00Z",
        "provision": {
          "type": "permit"
        }
      }
    },
    {
      "fullUrl": "Observation/q1-living-situation",
      "resource": {
        "resourceType": "Observation",
        "id": "q1-living-situation",
        "meta": {
          "profile": ["http://shinny.org/us/ny/hrsn/StructureDefinition/SHINNY-ObservationScreeningResponse"]
        },
        "status": "final",
        "category": [
          {
            "coding": [
              {
                "system": "http://hl7.org/fhir/us/sdoh-clinicalcare/CodeSystem/SDOHCC-CodeSystemTemporaryCodes",
                "code": "housing-instability",
                "display": "Housing Instability"
              }
            ]
          },
          {
            "coding": [
              {
                "system": "http://hl7.org/fhir/us/sdoh-clinicalcare/CodeSystem/SDOHCC-CodeSystemTemporaryCodes",
                "code": "homelessness",
                "display": "Homelessness"
              }
            ]
          }
        ],
        "code": {
          "coding": [
            {
              "system": "http://loinc.org",
              "code": "71802-3",
              "display": "What is your living situation today"
            }
          ]
        },
        "subject": {
          "reference": "Patient/patient-maria-rodriguez"
        },
        "encounter": {
          "reference": "Encounter/screening-encounter-001"
        },
        "effectiveDateTime": "2025-06-09T15:30:00Z",
        "valueCodeableConcept": {
          "coding": [
            {
              "system": "http://loinc.org",
              "code": "LA31995-6",
              "display": "I do not have a steady place to live (I am temporarily staying with others, in a hotel, in a shelter, living outside on the street, on a beach, in a car, abandoned building, bus or train station, or in a park)"
            }
          ]
        },
        "interpretation": [
          {
            "coding": [
              {
                "system": "http://terminology.hl7.org/CodeSystem/v3-ObservationInterpretation",
                "code": "POS",
                "display": "Positive"
              }
            ]
          }
        ]
      }
    },
    {
      "fullUrl": "Observation/q2-housing-problems",
      "resource": {
        "resourceType": "Observation",
        "id": "q2-housing-problems",
        "meta": {
          "profile": ["http://shinny.org/us/ny/hrsn/StructureDefinition/SHINNY-ObservationScreeningResponse"]
        },
        "status": "final",
        "category": [
          {
            "coding": [
              {
                "system": "http://hl7.org/fhir/us/sdoh-clinicalcare/CodeSystem/SDOHCC-CodeSystemTemporaryCodes",
                "code": "inadequate-housing",
                "display": "Inadequate Housing"
              }
            ]
          }
        ],
        "code": {
          "coding": [
            {
              "system": "http://loinc.org",
              "code": "96778-6",
              "display": "Think about the place you live. Do you have problems with any of the following"
            }
          ]
        },
        "subject": {
          "reference": "Patient/patient-maria-rodriguez"
        },
        "encounter": {
          "reference": "Encounter/screening-encounter-001"
        },
        "effectiveDateTime": "2025-06-09T15:30:00Z",
        "valueCodeableConcept": {
          "coding": [
            {
              "system": "http://loinc.org",
              "code": "LA9-3",
              "display": "None of the above"
            }
          ]
        }
      }
    },
    {
      "fullUrl": "Observation/q3-utility-shutoff",
      "resource": {
        "resourceType": "Observation",
        "id": "q3-utility-shutoff",
        "meta": {
          "profile": ["http://shinny.org/us/ny/hrsn/StructureDefinition/SHINNY-ObservationScreeningResponse"]
        },
        "status": "final",
        "category": [
          {
            "coding": [
              {
                "system": "http://hl7.org/fhir/us/sdoh-clinicalcare/CodeSystem/SDOHCC-CodeSystemTemporaryCodes",
                "code": "utility-insecurity",
                "display": "Utility Insecurity"
              }
            ]
          }
        ],
        "code": {
          "coding": [
            {
              "system": "http://loinc.org",
              "code": "96779-4",
              "display": "In the past 12 months has the electric, gas, oil, or water company threatened to shut off services in your home"
            }
          ]
        },
        "subject": {
          "reference": "Patient/patient-maria-rodriguez"
        },
        "encounter": {
          "reference": "Encounter/screening-encounter-001"
        },
        "effectiveDateTime": "2025-06-09T15:30:00Z",
        "valueCodeableConcept": {
          "coding": [
            {
              "system": "http://loinc.org",
              "code": "LA33-6",
              "display": "Yes"
            }
          ]
        },
        "interpretation": [
          {
            "coding": [
              {
                "system": "http://terminology.hl7.org/CodeSystem/v3-ObservationInterpretation",
                "code": "POS",
                "display": "Positive"
              }
            ]
          }
        ]
      }
    },
    {
      "fullUrl": "Observation/q4-food-worry",
      "resource": {
        "resourceType": "Observation",
        "id": "q4-food-worry",
        "meta": {
          "profile": ["http://shinny.org/us/ny/hrsn/StructureDefinition/SHINNY-ObservationScreeningResponse"]
        },
        "status": "final",
        "category": [
          {
            "coding": [
              {
                "system": "http://hl7.org/fhir/us/sdoh-clinicalcare/CodeSystem/SDOHCC-CodeSystemTemporaryCodes",
                "code": "food-insecurity",
                "display": "Food Insecurity"
              }
            ]
          }
        ],
        "code": {
          "coding": [
            {
              "system": "http://loinc.org",
              "code": "88122-7",
              "display": "Within the past 12 months, you worried that your food would run out before you got money to buy more"
            }
          ]
        },
        "subject": {
          "reference": "Patient/patient-maria-rodriguez"
        },
        "encounter": {
          "reference": "Encounter/screening-encounter-001"
        },
        "effectiveDateTime": "2025-06-09T15:30:00Z",
        "valueCodeableConcept": {
          "coding": [
            {
              "system": "http://loinc.org",
              "code": "LA28397-0",
              "display": "Often true"
            }
          ]
        },
        "interpretation": [
          {
            "coding": [
              {
                "system": "http://terminology.hl7.org/CodeSystem/v3-ObservationInterpretation",
                "code": "POS",
                "display": "Positive"
              }
            ]
          }
        ]
      }
    },
    {
      "fullUrl": "Observation/q5-food-didnt-last",
      "resource": {
        "resourceType": "Observation",
        "id": "q5-food-didnt-last",
        "meta": {
          "profile": ["http://shinny.org/us/ny/hrsn/StructureDefinition/SHINNY-ObservationScreeningResponse"]
        },
        "status": "final",
        "category": [
          {
            "coding": [
              {
                "system": "http://hl7.org/fhir/us/sdoh-clinicalcare/CodeSystem/SDOHCC-CodeSystemTemporaryCodes",
                "code": "food-insecurity",
                "display": "Food Insecurity"
              }
            ]
          }
        ],
        "code": {
          "coding": [
            {
              "system": "http://loinc.org",
              "code": "88123-5",
              "display": "Within the past 12 months, the food you bought just didn't last and you didn't have money to get more"
            }
          ]
        },
        "subject": {
          "reference": "Patient/patient-maria-rodriguez"
        },
        "encounter": {
          "reference": "Encounter/screening-encounter-001"
        },
        "effectiveDateTime": "2025-06-09T15:30:00Z",
        "valueCodeableConcept": {
          "coding": [
            {
              "system": "http://loinc.org",
              "code": "LA6729-3",
              "display": "Sometimes true"
            }
          ]
        },
        "interpretation": [
          {
            "coding": [
              {
                "system": "http://terminology.hl7.org/CodeSystem/v3-ObservationInterpretation",
                "code": "POS",
                "display": "Positive"
              }
            ]
          }
        ]
      }
    },
    {
      "fullUrl": "Observation/q6-transportation",
      "resource": {
        "resourceType": "Observation",
        "id": "q6-transportation",
        "meta": {
          "profile": ["http://shinny.org/us/ny/hrsn/StructureDefinition/SHINNY-ObservationScreeningResponse"]
        },
        "status": "final",
        "category": [
          {
            "coding": [
              {
                "system": "http://hl7.org/fhir/us/sdoh-clinicalcare/CodeSystem/SDOHCC-CodeSystemTemporaryCodes",
                "code": "transportation-insecurity",
                "display": "Transportation Insecurity"
              }
            ]
          }
        ],
        "code": {
          "coding": [
            {
              "system": "http://loinc.org",
              "code": "93030-5",
              "display": "In the past 12 months, has lack of reliable transportation kept you from medical appointments, meetings, work or from getting things needed for daily living"
            }
          ]
        },
        "subject": {
          "reference": "Patient/patient-maria-rodriguez"
        },
        "encounter": {
          "reference": "Encounter/screening-encounter-001"
        },
        "effectiveDateTime": "2025-06-09T15:30:00Z",
        "valueCodeableConcept": {
          "coding": [
            {
              "system": "http://loinc.org",
              "code": "LA32-8",
              "display": "No"
            }
          ]
        }
      }
    },
    {
      "fullUrl": "Observation/q7-employment",
      "resource": {
        "resourceType": "Observation",
        "id": "q7-employment",
        "meta": {
          "profile": ["http://shinny.org/us/ny/hrsn/StructureDefinition/SHINNY-ObservationScreeningResponse"]
        },
        "status": "final",
        "category": [
          {
            "coding": [
              {
                "system": "http://hl7.org/fhir/us/sdoh-clinicalcare/CodeSystem/SDOHCC-CodeSystemTemporaryCodes",
                "code": "employment-status",
                "display": "Employment Status"
              }
            ]
          }
        ],
        "code": {
          "coding": [
            {
              "system": "http://loinc.org",
              "code": "96780-2",
              "display": "Do you want help finding or keeping work or a job"
            }
          ]
        },
        "subject": {
          "reference": "Patient/patient-maria-rodriguez"
        },
        "encounter": {
          "reference": "Encounter/screening-encounter-001"
        },
        "effectiveDateTime": "2025-06-09T15:30:00Z",
        "valueCodeableConcept": {
          "coding": [
            {
              "system": "http://loinc.org",
              "code": "LA31981-6",
              "display": "Yes, help finding work"
            }
          ]
        },
        "interpretation": [
          {
            "coding": [
              {
                "system": "http://terminology.hl7.org/CodeSystem/v3-ObservationInterpretation",
                "code": "POS",
                "display": "Positive"
              }
            ]
          }
        ]
      }
    },
    {
      "fullUrl": "Observation/q8-education",
      "resource": {
        "resourceType": "Observation",
        "id": "q8-education",
        "meta": {
          "profile": ["http://shinny.org/us/ny/hrsn/StructureDefinition/SHINNY-ObservationScreeningResponse"]
        },
        "status": "final",
        "category": [
          {
            "coding": [
              {
                "system": "http://hl7.org/fhir/us/sdoh-clinicalcare/CodeSystem/SDOHCC-CodeSystemTemporaryCodes",
                "code": "sdoh-category-unspecified",
                "display": "SDOH Category Unspecified"
              }
            ]
          }
        ],
        "code": {
          "coding": [
            {
              "system": "http://loinc.org",
              "code": "96782-8",
              "display": "Do you want help with school or training. For example, starting or completing job training or getting a high school diploma, GED or equivalent"
            }
          ]
        },
        "subject": {
          "reference": "Patient/patient-maria-rodriguez"
        },
        "encounter": {
          "reference": "Encounter/screening-encounter-001"
        },
        "effectiveDateTime": "2025-06-09T15:30:00Z",
        "valueCodeableConcept": {
          "coding": [
            {
              "system": "http://loinc.org",
              "code": "LA32-8",
              "display": "No"
            }
          ]
        }
      }
    },
    {
      "fullUrl": "Observation/q9-physical-hurt",
      "resource": {
        "resourceType": "Observation",
        "id": "q9-physical-hurt",
        "meta": {
          "profile": ["http://shinny.org/us/ny/hrsn/StructureDefinition/SHINNY-ObservationScreeningResponse"]
        },
        "status": "final",
        "category": [
          {
            "coding": [
              {
                "system": "http://hl7.org/fhir/us/sdoh-clinicalcare/CodeSystem/SDOHCC-CodeSystemTemporaryCodes",
                "code": "sdoh-category-unspecified",
                "display": "SDOH Category Unspecified"
              }
            ]
          }
        ],
        "code": {
          "coding": [
            {
              "system": "http://loinc.org",
              "code": "95618-5",
              "display": "How often does anyone, including family and friends, physically hurt you"
            }
          ]
        },
        "subject": {
          "reference": "Patient/patient-maria-rodriguez"
        },
        "encounter": {
          "reference": "Encounter/screening-encounter-001"
        },
        "effectiveDateTime": "2025-06-09T15:30:00Z",
        "valueCodeableConcept": {
          "coding": [
            {
              "system": "http://loinc.org",
              "code": "LA10082-8",
              "display": "Sometimes (3)"
            }
          ]
        }
      }
    },
    {
      "fullUrl": "Observation/q10-insult",
      "resource": {
        "resourceType": "Observation",
        "id": "q10-insult",
        "meta": {
          "profile": ["http://shinny.org/us/ny/hrsn/StructureDefinition/SHINNY-ObservationScreeningResponse"]
        },
        "status": "final",
        "category": [
          {
            "coding": [
              {
                "system": "http://hl7.org/fhir/us/sdoh-clinicalcare/CodeSystem/SDOHCC-CodeSystemTemporaryCodes",
                "code": "sdoh-category-unspecified",
                "display": "SDOH Category Unspecified"
              }
            ]
          }
        ],
        "code": {
          "coding": [
            {
              "system": "http://loinc.org",
              "code": "95617-7",
              "display": "How often does anyone, including family and friends, insult or talk down to you"
            }
          ]
        },
        "subject": {
          "reference": "Patient/patient-maria-rodriguez"
        },
        "encounter": {
          "reference": "Encounter/screening-encounter-001"
        },
        "effectiveDateTime": "2025-06-09T15:30:00Z",
        "valueCodeableConcept": {
          "coding": [
            {
              "system": "http://loinc.org",
              "code": "LA16644-9",
              "display": "Fairly often (4)"
            }
          ]
        }
      }
    },
    {
      "fullUrl": "Observation/q11-threaten",
      "resource": {
        "resourceType": "Observation",
        "id": "q11-threaten",
        "meta": {
          "profile": ["http://shinny.org/us/ny/hrsn/StructureDefinition/SHINNY-ObservationScreeningResponse"]
        },
        "status": "final",
        "category": [
          {
            "coding": [
              {
                "system": "http://hl7.org/fhir/us/sdoh-clinicalcare/CodeSystem/SDOHCC-CodeSystemTemporaryCodes",
                "code": "sdoh-category-unspecified",
                "display": "SDOH Category Unspecified"
              }
            ]
          }
        ],
        "code": {
          "coding": [
            {
              "system": "http://loinc.org",
              "code": "95616-9",
              "display": "How often does anyone, including family and friends, threaten you with harm"
            }
          ]
        },
        "subject": {
          "reference": "Patient/patient-maria-rodriguez"
        },
        "encounter": {
          "reference": "Encounter/screening-encounter-001"
        },
        "effectiveDateTime": "2025-06-09T15:30:00Z",
        "valueCodeableConcept": {
          "coding": [
            {
              "system": "http://loinc.org",
              "code": "LA10066-1",
              "display": "Rarely (2)"
            }
          ]
        }
      }
    },
    {
      "fullUrl": "Observation/q12-scream-curse",
      "resource": {
        "resourceType": "Observation",
        "id": "q12-scream-curse",
        "meta": {
          "profile": ["http://shinny.org/us/ny/hrsn/StructureDefinition/SHINNY-ObservationScreeningResponse"]
        },
        "status": "final",
        "category": [
          {
            "coding": [
              {
              "system": "http://hl7.org/fhir/us/sdoh-clinicalcare/CodeSystem/SDOHCC-CodeSystemTemporaryCodes",
                "code": "sdoh-category-unspecified",
                "display": "SDOH Category Unspecified"
              }
            ]
          }
        ],
        "code": {
          "coding": [
            {
              "system": "http://loinc.org",
              "code": "95615-1",
              "display": "How often does anyone, including family and friends, scream or curse at you"
            }
          ]
        },
        "subject": {
          "reference": "Patient/patient-maria-rodriguez"
        },
        "encounter": {
          "reference": "Encounter/screening-encounter-001"
        },
        "effectiveDateTime": "2025-06-09T15:30:00Z",
        "valueCodeableConcept": {
          "coding": [
            {
              "system": "http://loinc.org",
              "code": "LA10082-8",
              "display": "Sometimes (3)"
            }
          ]
        }
      }
    },
    {
      "fullUrl": "Observation/safety-score",
      "resource": {
        "resourceType": "Observation",
        "id": "safety-score",
        "meta": {
          "profile": ["http://shinny.org/us/ny/hrsn/StructureDefinition/SHINNY-ObservationScreeningResponse"]
        },
        "status": "final",
        "category": [
          {
            "coding": [
              {
                "system": "http://hl7.org/fhir/us/sdoh-clinicalcare/CodeSystem/SDOHCC-CodeSystemTemporaryCodes",
                "code": "sdoh-category-unspecified",
                "display": "SDOH Category Unspecified"
              }
            ]
          }
        ],
        "code": {
          "coding": [
            {
              "system": "http://loinc.org",
              "code": "95614-4",
              "display": "Total Safety Score"
            }
          ]
        },
        "subject": {
          "reference": "Patient/patient-maria-rodriguez"
        },
        "encounter": {
          "reference": "Encounter/screening-encounter-001"
        },
        "effectiveDateTime": "2025-06-09T15:30:00Z",
        "valueInteger": 12,
        "note": [
          {
            "text": "Score of 12 (3+4+2+3) indicates safety concerns. Score of 11 or more may indicate that a person may not be safe."
          }
        ],
        "interpretation": [
          {
            "coding": [
              {
                "system": "http://terminology.hl7.org/CodeSystem/v3-ObservationInterpretation",
                "code": "POS",
                "display": "Positive"
              }
            ]
          }
        ]
      }
    }
  ]
}